imageFile,corrAns,sameOrDiff,trials.thisRepN,trials.thisTrialN,trials.thisN,trials.thisIndex,background.started,startkey.started,instructionstxt.started,background2.started,faces.started,resp.started,trial_counter.started,reminder.started,resp.keys,resp.corr,resp.rt,resp.duration,background4.started,endmsg.started,participant,session,date,expName,psychopyVersion,frameRate,
C:\Users\ASUS\OneDrive\Desktop\glasgow_face_matching-master\same\129_C2_DV.jpg,left,same,0,0,0,13,19.373399900039658,19.373399900039658,19.373399900039658,45.07495820010081,45.07495820010081,45.07495820010081,45.07495820010081,45.07495820010081,left,1,13.132871699985117,None,,,2,001,2023-11-27_22h00.27.029,glasgow face matching task new,2023.1.3,60.09759851553912,
C:\Users\ASUS\OneDrive\Desktop\glasgow_face_matching-master\different\106_224_L.jpg,right,different,0,1,1,29,,,,58.27040700009093,58.27040700009093,58.27040700009093,58.27040700009093,58.27040700009093,right,1,3.235927799833007,None,,,2,001,2023-11-27_22h00.27.029,glasgow face matching task new,2023.1.3,60.09759851553912,
C:\Users\ASUS\OneDrive\Desktop\glasgow_face_matching-master\same\120_DV_C2.jpg,left,same,0,2,2,12,,,,61.568288600072265,61.568288600072265,61.568288600072265,61.568288600072265,61.568288600072265,left,1,5.74611639988143,None,,,2,001,2023-11-27_22h00.27.029,glasgow face matching task new,2023.1.3,60.09759851553912,
C:\Users\ASUS\OneDrive\Desktop\glasgow_face_matching-master\same\Untitled (13).png,left,same,0,3,3,9,,,,67.39949990005698,67.39949990005698,67.39949990005698,67.39949990005698,67.39949990005698,left,1,2.0427387999370694,None,,,2,001,2023-11-27_22h00.27.029,glasgow face matching task new,2023.1.3,60.09759851553912,
C:\Users\ASUS\OneDrive\Desktop\glasgow_face_matching-master\same\303_DV_C2.jpg,left,same,0,4,4,19,,,,69.52086300007068,69.52086300007068,69.52086300007068,69.52086300007068,69.52086300007068,left,1,2.0384398999158293,None,,,2,001,2023-11-27_22h00.27.029,glasgow face matching task new,2023.1.3,60.09759851553912,
C:\Users\ASUS\OneDrive\Desktop\glasgow_face_matching-master\same\Untitled (4).png,left,same,0,5,5,4,,,,71.66066680010408,71.66066680010408,71.66066680010408,71.66066680010408,71.66066680010408,left,1,1.2091503998963162,None,,,2,001,2023-11-27_22h00.27.029,glasgow face matching task new,2023.1.3,60.09759851553912,
C:\Users\ASUS\OneDrive\Desktop\glasgow_face_matching-master\different\Untitled.jpeg,right,different,0,6,6,38,,,,72.95071930007543,72.95071930007543,72.95071930007543,72.95071930007543,72.95071930007543,right,1,1.5685822998639196,None,,,2,001,2023-11-27_22h00.27.029,glasgow face matching task new,2023.1.3,60.09759851553912,
C:\Users\ASUS\OneDrive\Desktop\glasgow_face_matching-master\different\Untitled (8).png,right,different,0,7,7,33,,,,74.61491090001073,74.61491090001073,74.61491090001073,74.61491090001073,74.61491090001073,right,1,2.0563460998237133,None,,,2,001,2023-11-27_22h00.27.029,glasgow face matching task new,2023.1.3,60.09759851553912,
C:\Users\ASUS\OneDrive\Desktop\glasgow_face_matching-master\same\136_C2_DV.jpg,left,same,0,8,8,14,,,,76.73244910000358,76.73244910000358,76.73244910000358,76.73244910000358,76.73244910000358,left,1,1.816052399808541,None,,,2,001,2023-11-27_22h00.27.029,glasgow face matching task new,2023.1.3,60.09759851553912,
C:\Users\ASUS\OneDrive\Desktop\glasgow_face_matching-master\same\Untitled (1).png,left,same,0,9,9,2,,,,78.63094600010663,78.63094600010663,78.63094600010663,78.63094600010663,78.63094600010663,left,1,3.798095299862325,None,,,2,001,2023-11-27_22h00.27.029,glasgow face matching task new,2023.1.3,60.09759851553912,
C:\Users\ASUS\OneDrive\Desktop\glasgow_face_matching-master\same\EaDfeOoU4AAcwAq .jpg,left,same,0,10,10,0,,,,82.47914310009219,82.47914310009219,82.47914310009219,82.47914310009219,82.47914310009219,right,0,1.961341799935326,None,,,2,001,2023-11-27_22h00.27.029,glasgow face matching task new,2023.1.3,60.09759851553912,
C:\Users\ASUS\OneDrive\Desktop\glasgow_face_matching-master\same\Untitled (12).png,left,same,0,11,11,8,,,,84.51606700010598,84.51606700010598,84.51606700010598,84.51606700010598,84.51606700010598,left,1,2.4555113998940215,None,,,2,001,2023-11-27_22h00.27.029,glasgow face matching task new,2023.1.3,60.09759851553912,
C:\Users\ASUS\OneDrive\Desktop\glasgow_face_matching-master\different\019_074_L.jpg,right,different,0,12,12,21,,,,87.01948310004082,87.01948310004082,87.01948310004082,87.01948310004082,87.01948310004082,right,1,3.3240858998615295,None,,,2,001,2023-11-27_22h00.27.029,glasgow face matching task new,2023.1.3,60.09759851553912,
C:\Users\ASUS\OneDrive\Desktop\glasgow_face_matching-master\different\Untitled (10).png,right,different,0,13,13,35,,,,90.422233600053,90.422233600053,90.422233600053,90.422233600053,90.422233600053,right,1,3.4929142999462783,None,,,2,001,2023-11-27_22h00.27.029,glasgow face matching task new,2023.1.3,60.09759851553912,
C:\Users\ASUS\OneDrive\Desktop\glasgow_face_matching-master\different\025_235_L.jpg,right,different,0,14,14,22,,,,93.97260930004995,93.97260930004995,93.97260930004995,93.97260930004995,93.97260930004995,right,1,8.057753099827096,None,,,2,001,2023-11-27_22h00.27.029,glasgow face matching task new,2023.1.3,60.09759851553912,
C:\Users\ASUS\OneDrive\Desktop\glasgow_face_matching-master\different\Untitled (7).png,right,different,0,15,15,32,,,,102.12754440004937,102.12754440004937,102.12754440004937,102.12754440004937,102.12754440004937,left,0,1.9050585998920724,None,,,2,001,2023-11-27_22h00.27.029,glasgow face matching task new,2023.1.3,60.09759851553912,
C:\Users\ASUS\OneDrive\Desktop\glasgow_face_matching-master\same\170_DV_C2.jpg,left,same,0,16,16,17,,,,104.07760410010815,104.07760410010815,104.07760410010815,104.07760410010815,104.07760410010815,left,1,3.7717515998519957,None,,,2,001,2023-11-27_22h00.27.029,glasgow face matching task new,2023.1.3,60.09759851553912,
C:\Users\ASUS\OneDrive\Desktop\glasgow_face_matching-master\different\fpsyg-12-627678-g001 different 1.jpg,right,different,0,17,17,30,,,,107.88349930010736,107.88349930010736,107.88349930010736,107.88349930010736,107.88349930010736,right,1,1.5788834998384118,None,,,2,001,2023-11-27_22h00.27.029,glasgow face matching task new,2023.1.3,60.09759851553912,
C:\Users\ASUS\OneDrive\Desktop\glasgow_face_matching-master\different\013_235_R.jpg,right,different,0,18,18,20,,,,109.49584830005188,109.49584830005188,109.49584830005188,109.49584830005188,109.49584830005188,left,0,2.5413549998775125,None,,,2,001,2023-11-27_22h00.27.029,glasgow face matching task new,2023.1.3,60.09759851553912,
C:\Users\ASUS\OneDrive\Desktop\glasgow_face_matching-master\same\Untitled (5).png,left,same,0,19,19,5,,,,112.14188930008095,112.14188930008095,112.14188930008095,112.14188930008095,112.14188930008095,right,0,1.728629699908197,None,,,2,001,2023-11-27_22h00.27.029,glasgow face matching task new,2023.1.3,60.09759851553912,
C:\Users\ASUS\OneDrive\Desktop\glasgow_face_matching-master\same\115_C2_DV.jpg,left,same,0,20,20,11,,,,113.91414250002708,113.91414250002708,113.91414250002708,113.91414250002708,113.91414250002708,right,0,1.3708128998987377,None,,,2,001,2023-11-27_22h00.27.029,glasgow face matching task new,2023.1.3,60.09759851553912,
C:\Users\ASUS\OneDrive\Desktop\glasgow_face_matching-master\same\235_C2_DV.jpg,left,same,0,21,21,18,,,,115.33373430010397,115.33373430010397,115.33373430010397,115.33373430010397,115.33373430010397,right,0,2.582215399830602,None,,,2,001,2023-11-27_22h00.27.029,glasgow face matching task new,2023.1.3,60.09759851553912,
C:\Users\ASUS\OneDrive\Desktop\glasgow_face_matching-master\same\139_DV_C2.jpg,left,same,0,22,22,15,,,,117.96745500003453,117.96745500003453,117.96745500003453,117.96745500003453,117.96745500003453,right,0,3.5888955999398604,None,,,2,001,2023-11-27_22h00.27.029,glasgow face matching task new,2023.1.3,60.09759851553912,
C:\Users\ASUS\OneDrive\Desktop\glasgow_face_matching-master\different\Untitled (14).png,right,different,0,23,23,36,,,,121.63302370009478,121.63302370009478,121.63302370009478,121.63302370009478,121.63302370009478,left,0,1.3032681999029592,None,,,2,001,2023-11-27_22h00.27.029,glasgow face matching task new,2023.1.3,60.09759851553912,
C:\Users\ASUS\OneDrive\Desktop\glasgow_face_matching-master\same\Untitled (11).png,left,same,0,24,24,7,,,,123.0109752001008,123.0109752001008,123.0109752001008,123.0109752001008,123.0109752001008,left,1,1.006533099920489,None,,,2,001,2023-11-27_22h00.27.029,glasgow face matching task new,2023.1.3,60.09759851553912,
C:\Users\ASUS\OneDrive\Desktop\glasgow_face_matching-master\different\Untitled (15).png,right,different,0,25,25,37,,,,124.11185300000943,124.11185300000943,124.11185300000943,124.11185300000943,124.11185300000943,right,1,0.902044199872762,None,,,2,001,2023-11-27_22h00.27.029,glasgow face matching task new,2023.1.3,60.09759851553912,
C:\Users\ASUS\OneDrive\Desktop\glasgow_face_matching-master\different\fpsyg-12-627678-g001 different.jpg,right,different,0,26,26,31,,,,125.07406000001356,125.07406000001356,125.07406000001356,125.07406000001356,125.07406000001356,right,1,1.9080357998609543,None,,,2,001,2023-11-27_22h00.27.029,glasgow face matching task new,2023.1.3,60.09759851553912,
C:\Users\ASUS\OneDrive\Desktop\glasgow_face_matching-master\different\Untitled (9).png,right,different,0,27,27,34,,,,127.08258770010434,127.08258770010434,127.08258770010434,127.08258770010434,127.08258770010434,left,0,4.955863699899055,None,,,2,001,2023-11-27_22h00.27.029,glasgow face matching task new,2023.1.3,60.09759851553912,
C:\Users\ASUS\OneDrive\Desktop\glasgow_face_matching-master\different\077_133_R.jpg,right,different,0,28,28,25,,,,132.0782673000358,132.0782673000358,132.0782673000358,132.0782673000358,132.0782673000358,right,1,1.8174798998516053,None,,,2,001,2023-11-27_22h00.27.029,glasgow face matching task new,2023.1.3,60.09759851553912,
C:\Users\ASUS\OneDrive\Desktop\glasgow_face_matching-master\different\049_218_L.jpg,right,different,0,29,29,23,,,,133.9389887000434,133.9389887000434,133.9389887000434,133.9389887000434,133.9389887000434,right,1,2.1432378999888897,None,,,2,001,2023-11-27_22h00.27.029,glasgow face matching task new,2023.1.3,60.09759851553912,
C:\Users\ASUS\OneDrive\Desktop\glasgow_face_matching-master\same\Untitled (3).png,left,same,0,30,30,3,,,,136.18406080000568,136.18406080000568,136.18406080000568,136.18406080000568,136.18406080000568,left,1,1.6220094999298453,None,,,2,001,2023-11-27_22h00.27.029,glasgow face matching task new,2023.1.3,60.09759851553912,
C:\Users\ASUS\OneDrive\Desktop\glasgow_face_matching-master\same\168_C2_DV.jpg,left,same,0,31,31,16,,,,137.8712314000586,137.8712314000586,137.8712314000586,137.8712314000586,137.8712314000586,left,1,1.0053846999071538,None,,,2,001,2023-11-27_22h00.27.029,glasgow face matching task new,2023.1.3,60.09759851553912,
C:\Users\ASUS\OneDrive\Desktop\glasgow_face_matching-master\different\102_224_R.jpg,right,different,0,32,32,28,,,,138.92032000003383,138.92032000003383,138.92032000003383,138.92032000003383,138.92032000003383,right,1,0.9427586998790503,None,,,2,001,2023-11-27_22h00.27.029,glasgow face matching task new,2023.1.3,60.09759851553912,
C:\Users\ASUS\OneDrive\Desktop\glasgow_face_matching-master\different\092_283_L.jpg,right,different,0,33,33,27,,,,139.90618020005058,139.90618020005058,139.90618020005058,139.90618020005058,139.90618020005058,left,0,1.1173032999504358,None,,,2,001,2023-11-27_22h00.27.029,glasgow face matching task new,2023.1.3,60.09759851553912,
C:\Users\ASUS\OneDrive\Desktop\glasgow_face_matching-master\same\Untitled (6).png,left,same,0,34,34,6,,,,141.10061230009887,141.10061230009887,141.10061230009887,141.10061230009887,141.10061230009887,left,1,6.329016899922863,None,,,2,001,2023-11-27_22h00.27.029,glasgow face matching task new,2023.1.3,60.09759851553912,
C:\Users\ASUS\OneDrive\Desktop\glasgow_face_matching-master\different\Untitled.png,right,different,0,35,35,39,,,,147.52849230007268,147.52849230007268,147.52849230007268,147.52849230007268,147.52849230007268,right,1,1.3907273999648169,None,,,2,001,2023-11-27_22h00.27.029,glasgow face matching task new,2023.1.3,60.09759851553912,
C:\Users\ASUS\OneDrive\Desktop\glasgow_face_matching-master\same\EaDfeOoU4AAcwAq same faces.jpg,left,same,0,36,36,1,,,,148.96217020007316,148.96217020007316,148.96217020007316,148.96217020007316,148.96217020007316,right,0,3.7374556999420747,None,,,2,001,2023-11-27_22h00.27.029,glasgow face matching task new,2023.1.3,60.09759851553912,
C:\Users\ASUS\OneDrive\Desktop\glasgow_face_matching-master\different\076_109_R.jpg,right,different,0,37,37,24,,,,152.7480226000771,152.7480226000771,152.7480226000771,152.7480226000771,152.7480226000771,left,0,1.4807273998158053,None,,,2,001,2023-11-27_22h00.27.029,glasgow face matching task new,2023.1.3,60.09759851553912,
C:\Users\ASUS\OneDrive\Desktop\glasgow_face_matching-master\different\091_283_R.jpg,right,different,0,38,38,26,,,,154.28418100008275,154.28418100008275,154.28418100008275,154.28418100008275,154.28418100008275,left,0,1.7678725998848677,None,,,2,001,2023-11-27_22h00.27.029,glasgow face matching task new,2023.1.3,60.09759851553912,
C:\Users\ASUS\OneDrive\Desktop\glasgow_face_matching-master\same\108_DV_C2.jpg,left,same,0,39,39,10,,,,156.09243600000627,156.09243600000627,156.09243600000627,156.09243600000627,156.09243600000627,right,0,2.4148423998849466,None,,,2,001,2023-11-27_22h00.27.029,glasgow face matching task new,2023.1.3,60.09759851553912,
,,,,,,,,,,,,,,,,,,,158.5386563000502,158.5386563000502,,,,,,,
